Folder: Fitting-GUI/data_sets

Note: data_sets/hooke.json
{
  "title":"Hooke's law",
  "xlabel":"F (N)",
  "ylabel":"X (m)",
  "x": [20,40,60,80,100,120,140],
  "y": [0.5,1,1.5,2,2.5,3,3.5]
}

Note: data_sets/simple_pendulum.json
{
  "title":"Simple pendulum",
  "xlabel":"L",
  "ylabel":"T^2",
  "x": [11,22,29,38,48,63],
  "y": [0.403,0.81,1.21,1.6,2.015,2.42]
}

Note: README.md
# For downloading the project click this =><a href="https://github.com/Nabil-Nasr/Fitting-GUI/archive/refs/heads/main.zip">Download</a>
# For installing required packages open the project main folder and run the following line in the terminal (pip install -r requirements.txt)

File: PET_C1s.csv
x,y,xlabel,ylabel,title
299.301,324.2826,Binding Energy(eV),Intensity (arb. unit),XPS C1s spectrum
299.251,352.4358
299.151,342.0087
299.051,356.6066
298.951,332.6243
298.851,329.4962
298.751,328.4535
298.651,326.368
298.551,328.4535
298.451,322.1972
298.351,335.7524
298.251,306.5565
298.151,315.9409
298.051,276.318
297.951,296.1295
297.851,286.7451
297.751,303.4284
297.651,294.044
297.551,293.0013
297.451,297.1722
297.351,295.0868
297.251,284.6597
297.151,265.8909
297.051,287.7878
296.951,270.0617
296.851,273.1898
296.751,254.4211
296.651,274.2326
296.551,275.2753
296.451,274.2326
296.351,284.6597
296.251,252.3357
296.151,272.1472
296.051,275.2753
295.951,296.1295
295.851,303.4284
295.751,293.0013
295.651,298.2149
295.551,299.2576
295.451,310.7274
295.351,308.642
295.251,298.2149
295.151,291.9586
295.051,318.0264
294.951,283.6169
294.851,315.9409
294.751,300.3003
294.651,263.8055
294.551,271.1044
294.451,282.5742
294.351,299.2576
294.251,258.5919
294.151,276.318
294.051,279.4461
293.951,270.0617
293.851,265.8909
293.751,306.5565
293.651,281.5315
293.551,255.4638
293.451,289.8732
293.351,282.5742
293.251,278.4034
293.151,280.4888
293.051,283.6169
292.951,271.1044
292.851,273.1898
292.751,258.5919
292.651,293.0013
292.551,286.7451
292.451,294.044
292.351,306.5565
292.251,325.3253
292.151,318.0264
292.051,308.642
291.951,349.3076
291.851,356.6066
291.751,319.0691
291.651,349.3076
291.551,398.315
291.451,342.0087
291.351,352.4358
291.251,339.9232
291.151,357.6493
291.051,325.3253
290.951,367.0337
290.851,381.6316
290.751,353.4785
290.651,352.4358
290.551,297.1722
290.451,291.9586
290.351,326.368
290.251,308.642
290.151,294.044
290.051,278.4034
289.951,296.1295
289.851,296.1295
289.751,281.5315
289.651,351.3931
289.551,314.8982
289.451,339.9232
289.351,380.5889
289.251,506.7568
289.151,680.8892
289.051,817.4842
288.951,1026.026
288.851,1191.82
288.751,1370.12
288.651,1597.43
288.551,1557.81
288.451,1518.18
288.351,1357.61
288.251,1202.24
288.151,985.3604
288.051,668.3767
287.951,506.7568
287.851,392.0587
287.751,358.692
287.651,259.6346
287.551,243.994
287.451,211.67
287.351,218.969
287.251,294.044
287.151,330.5389
287.051,379.5462
286.951,511.9703
286.851,597.4725
286.751,712.1705
286.651,838.3384
286.551,1053.14
286.451,1190.77
286.351,1303.39
286.251,1431.64
286.151,1505.67
286.051,1438.939
285.951,1366.99
285.851,1292.96
285.751,1137.6
285.651,1085.46
285.551,1087.55
285.451,1141.77
285.351,1325.28
285.251,1539.04
285.151,1956.12
285.051,2496.25
284.951,2833.04
284.851,3359.61
284.751,3617.16
284.651,3776.69
284.551,3847.6
284.451,3671.38
284.351,3259.51
284.251,2768.39
284.151,2242.87
284.051,1698.57
283.951,1261.68
283.851,883.1749
283.751,629.7964
283.651,461.9203
283.551,356.6066
283.451,269.019
283.351,215.8409
283.251,184.5596
283.151,182.4741
283.051,145.9793
282.951,148.0647
282.851,129.296
282.751,143.8939
282.651,118.8689
282.551,148.0647
282.451,120.9543
282.351,130.3387
282.251,132.4241
282.151,115.7407
282.051,119.9116
281.951,115.7407
281.851,123.0397
281.751,101.1428
281.651,106.3564
281.551,105.3137
281.451,117.8262
281.351,100.1001
281.251,130.3387
281.151,110.5272
281.051,141.8085
280.951,112.6126
280.851,109.4845
280.751,104.2709
280.651,102.1855
280.551,98.0147
280.451,100.1001
280.351,101.1428
280.251,114.698
280.151,111.5699
280.051,112.6126
279.951,120.9543
279.851,109.4845
279.751,114.698
279.651,99.0574
279.551,106.3564
279.451,103.2282
279.351,100.1001
279.301,117.8262